onset	duration	trial_number	instance_id	values	weights	target_profit	target_capacity	instance_number	response_type	response_correct	response_time	xyCoordinates	error	instance_type	solution	instance_complexity	propagations_MZN	decisions_SAT	sum_values	sum_weights	nSolutions	IC_expost_lin	lat_highest_vw_ratio	eventType	trial_type	response_button	instance_region
0.037	3.015	1	209-0.41-0.36	174511293422	5324935919	56	61	55	yes	correct	1.110029	(3.5,5.5)(8,2)(1.5,3)(8,4.5)(0.5,6)(5.5,6)	NA	6	yes	low	136	8	158	149	11	0.2848101265822785	left	1	items_screen	left	underconstrained
3.052	22.018	1	209-0.41-0.36	174511293422	5324935919	56	61	55	yes	correct	1.110029	(3.5,5.5)(8,2)(1.5,3)(8,4.5)(0.5,6)(5.5,6)	NA	6	yes	low	136	8	158	149	11	0.2848101265822785	left	11	decision_screen	left	underconstrained
25.07	2.02	1	209-0.41-0.36	174511293422	5324935919	56	61	55	yes	correct	1.110029	(3.5,5.5)(8,2)(1.5,3)(8,4.5)(0.5,6)(5.5,6)	NA	6	yes	low	136	8	158	149	11	0.2848101265822785	left	2	response_screen	left	underconstrained
26.179	0	1	209-0.41-0.36	174511293422	5324935919	56	61	55	yes	correct	1.110029	(3.5,5.5)(8,2)(1.5,3)(8,4.5)(0.5,6)(5.5,6)	NA	6	yes	low	136	8	158	149	11	0.2848101265822785	left	21	button_press	left	underconstrained
27.09	10.03	1	209-0.41-0.36	174511293422	5324935919	56	61	55	yes	correct	1.110029	(3.5,5.5)(8,2)(1.5,3)(8,4.5)(0.5,6)(5.5,6)	NA	6	yes	low	136	8	158	149	11	0.2848101265822785	left	3	inter_trial_screen	left	underconstrained
37.12	3.003	2	232-0.43-0.9	20362739843	122331481627	155	67	33	no	correct	0.8061826	(1,2.5)(7.5,6)(8,3.5)(4,6)(0,6)(6.5,1)	NA	5	no	low	110	0	173	157	0	0.3236994219653179	left	1	items_screen	right	overconstrained
40.123	22.019	2	232-0.43-0.9	20362739843	122331481627	155	67	33	no	correct	0.8061826	(1,2.5)(7.5,6)(8,3.5)(4,6)(0,6)(6.5,1)	NA	5	no	low	110	0	173	157	0	0.3236994219653179	left	11	decision_screen	right	overconstrained
62.142	2.017	2	232-0.43-0.9	20362739843	122331481627	155	67	33	no	correct	0.8061826	(1,2.5)(7.5,6)(8,3.5)(4,6)(0,6)(6.5,1)	NA	5	no	low	110	0	173	157	0	0.3236994219653179	left	2	response_screen	right	overconstrained
62.946	0	2	232-0.43-0.9	20362739843	122331481627	155	67	33	no	correct	0.8061826	(1,2.5)(7.5,6)(8,3.5)(4,6)(0,6)(6.5,1)	NA	5	no	low	110	0	173	157	0	0.3236994219653179	left	21	button_press	right	overconstrained
64.159	12.035	2	232-0.43-0.9	20362739843	122331481627	155	67	33	no	correct	0.8061826	(1,2.5)(7.5,6)(8,3.5)(4,6)(0,6)(6.5,1)	NA	5	no	low	110	0	173	157	0	0.3236994219653179	left	3	inter_trial_screen	right	overconstrained
76.194	3	3	104-0.43-0.64	25334917435	81836152041	110	59	21	yes	incorrect	0.743029	(8,4.5)(7.5,2)(0,4.5)(2.5,6)(0,1.5)(5.5,6)	NA	3	no	high	301	2	172	138	0	0.05232558139534884	right	1	items_screen	right	phase_transition
79.194	22.02	3	104-0.43-0.64	25334917435	81836152041	110	59	21	yes	incorrect	0.743029	(8,4.5)(7.5,2)(0,4.5)(2.5,6)(0,1.5)(5.5,6)	NA	3	no	high	301	2	172	138	0	0.05232558139534884	right	11	decision_screen	right	phase_transition
101.214	2.016	3	104-0.43-0.64	25334917435	81836152041	110	59	21	yes	incorrect	0.743029	(8,4.5)(7.5,2)(0,4.5)(2.5,6)(0,1.5)(5.5,6)	NA	3	no	high	301	2	172	138	0	0.05232558139534884	right	2	response_screen	right	phase_transition
101.955	0	3	104-0.43-0.64	25334917435	81836152041	110	59	21	yes	incorrect	0.743029	(8,4.5)(7.5,2)(0,4.5)(2.5,6)(0,1.5)(5.5,6)	NA	3	no	high	301	2	172	138	0	0.05232558139534884	right	21	button_press	right	phase_transition
103.23	8.035	3	104-0.43-0.64	25334917435	81836152041	110	59	21	yes	incorrect	0.743029	(8,4.5)(7.5,2)(0,4.5)(2.5,6)(0,1.5)(5.5,6)	NA	3	no	high	301	2	172	138	0	0.05232558139534884	right	3	inter_trial_screen	right	phase_transition
111.265	3.001	4	123-0.43-0.62	16293526613	2116347846	77	56	8	yes	correct	0.6280326	(2.5,6)(6,5)(0.5,1.5)(7,0.5)(0.5,4.5)(8,3.5)	NA	2	yes	high	137	6	125	132	1	0	right	1	items_screen	right	phase_transition
114.266	22.019	4	123-0.43-0.62	16293526613	2116347846	77	56	8	yes	correct	0.6280326	(2.5,6)(6,5)(0.5,1.5)(7,0.5)(0.5,4.5)(8,3.5)	NA	2	yes	high	137	6	125	132	1	0	right	11	decision_screen	right	phase_transition
136.285	2.017	4	123-0.43-0.62	16293526613	2116347846	77	56	8	yes	correct	0.6280326	(2.5,6)(6,5)(0.5,1.5)(7,0.5)(0.5,4.5)(8,3.5)	NA	2	yes	high	137	6	125	132	1	0	right	2	response_screen	right	phase_transition
136.911	0	4	123-0.43-0.62	16293526613	2116347846	77	56	8	yes	correct	0.6280326	(2.5,6)(6,5)(0.5,1.5)(7,0.5)(0.5,4.5)(8,3.5)	NA	2	yes	high	137	6	125	132	1	0	right	21	button_press	right	phase_transition
138.302	8.035	4	123-0.43-0.62	16293526613	2116347846	77	56	8	yes	correct	0.6280326	(2.5,6)(6,5)(0.5,1.5)(7,0.5)(0.5,4.5)(8,3.5)	NA	2	yes	high	137	6	125	132	1	0	right	3	inter_trial_screen	right	phase_transition
146.337	3	5	247-0.43-0.63	2591735515	372449423611	66	85	3	yes	incorrect	0.8503621	(8,2)(0.5,3.5)(1.5,1)(6.5,5)(1,6)(5,0.5)	NA	1	no	high	190	1	106	199	0	0.05660377358490566	right	1	items_screen	right	phase_transition
149.337	22.019	5	247-0.43-0.63	2591735515	372449423611	66	85	3	yes	incorrect	0.8503621	(8,2)(0.5,3.5)(1.5,1)(6.5,5)(1,6)(5,0.5)	NA	1	no	high	190	1	106	199	0	0.05660377358490566	right	11	decision_screen	right	phase_transition
171.356	2.017	5	247-0.43-0.63	2591735515	372449423611	66	85	3	yes	incorrect	0.8503621	(8,2)(0.5,3.5)(1.5,1)(6.5,5)(1,6)(5,0.5)	NA	1	no	high	190	1	106	199	0	0.05660377358490566	right	2	response_screen	right	phase_transition
172.204	0	5	247-0.43-0.63	2591735515	372449423611	66	85	3	yes	incorrect	0.8503621	(8,2)(0.5,3.5)(1.5,1)(6.5,5)(1,6)(5,0.5)	NA	1	no	high	190	1	106	199	0	0.05660377358490566	right	21	button_press	right	phase_transition
173.373	10.034	5	247-0.43-0.63	2591735515	372449423611	66	85	3	yes	incorrect	0.8503621	(8,2)(0.5,3.5)(1.5,1)(6.5,5)(1,6)(5,0.5)	NA	1	no	high	190	1	106	199	0	0.05660377358490566	right	3	inter_trial_screen	right	phase_transition
183.407	3.003	6	88-0.42-0.65	271946113713	254417393023	99	74	23	yes	correct	0.7364715	(2,6)(0,4)(6.5,5)(6,1)(1.5,1.5)(7.5,3)	NA	4	yes	high	230	4	153	178	1	0.0718954248366013	right	1	items_screen	left	phase_transition
186.41	22.019	6	88-0.42-0.65	271946113713	254417393023	99	74	23	yes	correct	0.7364715	(2,6)(0,4)(6.5,5)(6,1)(1.5,1.5)(7.5,3)	NA	4	yes	high	230	4	153	178	1	0.0718954248366013	right	11	decision_screen	left	phase_transition
208.429	2.016	6	88-0.42-0.65	271946113713	254417393023	99	74	23	yes	correct	0.7364715	(2,6)(0,4)(6.5,5)(6,1)(1.5,1.5)(7.5,3)	NA	4	yes	high	230	4	153	178	1	0.0718954248366013	right	2	response_screen	left	phase_transition
209.163	0	6	88-0.42-0.65	271946113713	254417393023	99	74	23	yes	correct	0.7364715	(2,6)(0,4)(6.5,5)(6,1)(1.5,1.5)(7.5,3)	NA	4	yes	high	230	4	153	178	1	0.0718954248366013	right	21	button_press	left	phase_transition
210.445	8.035	6	88-0.42-0.65	271946113713	254417393023	99	74	23	yes	correct	0.7364715	(2,6)(0,4)(6.5,5)(6,1)(1.5,1.5)(7.5,3)	NA	4	yes	high	230	4	153	178	1	0.0718954248366013	right	3	inter_trial_screen	left	phase_transition
218.48	3.003	7	51-0.41-0.87	111535411429	27337233528	126	62	42	no	correct	1.187051	(6.5,2.5)(0.5,6)(6.5,5.5)(0,3.5)(0,1)(3.5,6)	NA	5	no	low	84	0	145	153	0	0.2827586206896552	left	1	items_screen	left	overconstrained
221.483	22.019	7	51-0.41-0.87	111535411429	27337233528	126	62	42	no	correct	1.187051	(6.5,2.5)(0.5,6)(6.5,5.5)(0,3.5)(0,1)(3.5,6)	NA	5	no	low	84	0	145	153	0	0.2827586206896552	left	11	decision_screen	left	overconstrained
243.502	2.017	7	51-0.41-0.87	111535411429	27337233528	126	62	42	no	correct	1.187051	(6.5,2.5)(0.5,6)(6.5,5.5)(0,3.5)(0,1)(3.5,6)	NA	5	no	low	84	0	145	153	0	0.2827586206896552	left	2	response_screen	left	overconstrained
244.687	0	7	51-0.41-0.87	111535411429	27337233528	126	62	42	no	correct	1.187051	(6.5,2.5)(0.5,6)(6.5,5.5)(0,3.5)(0,1)(3.5,6)	NA	5	no	low	84	0	145	153	0	0.2827586206896552	left	21	button_press	left	overconstrained
245.519	8.035	7	51-0.41-0.87	111535411429	27337233528	126	62	42	no	correct	1.187051	(6.5,2.5)(0.5,6)(6.5,5.5)(0,3.5)(0,1)(3.5,6)	NA	5	no	low	84	0	145	153	0	0.2827586206896552	left	3	inter_trial_screen	left	overconstrained
253.554	3.001	8	74-0.43-0.4	184438204043	3334926383	81	65	45	yes	correct	0.7652025	(1,1)(6.5,1)(7.5,4)(0.5,4.5)(2.5,6)(4,0.5)	NA	6	yes	low	135	6	203	152	10	0.2167487684729064	center	1	items_screen	left	underconstrained
256.555	22.019	8	74-0.43-0.4	184438204043	3334926383	81	65	45	yes	correct	0.7652025	(1,1)(6.5,1)(7.5,4)(0.5,4.5)(2.5,6)(4,0.5)	NA	6	yes	low	135	6	203	152	10	0.2167487684729064	center	11	decision_screen	left	underconstrained
278.574	2.017	8	74-0.43-0.4	184438204043	3334926383	81	65	45	yes	correct	0.7652025	(1,1)(6.5,1)(7.5,4)(0.5,4.5)(2.5,6)(4,0.5)	NA	6	yes	low	135	6	203	152	10	0.2167487684729064	center	2	response_screen	left	underconstrained
279.338	0	8	74-0.43-0.4	184438204043	3334926383	81	65	45	yes	correct	0.7652025	(1,1)(6.5,1)(7.5,4)(0.5,4.5)(2.5,6)(4,0.5)	NA	6	yes	low	135	6	203	152	10	0.2167487684729064	center	21	button_press	left	underconstrained
280.591	8.035	8	74-0.43-0.4	184438204043	3334926383	81	65	45	yes	correct	0.7652025	(1,1)(6.5,1)(7.5,4)(0.5,4.5)(2.5,6)(4,0.5)	NA	6	yes	low	135	6	203	152	10	0.2167487684729064	center	3	inter_trial_screen	left	underconstrained
288.626	0.037	8	74-0.43-0.4	184438204043	3334926383	81	65	45	yes	correct	0.7652025	(1,1)(6.5,1)(7.5,4)(0.5,4.5)(2.5,6)(4,0.5)	NA	6	yes	low	135	6	203	152	10	0.2167487684729064	center	4	inter_block_screen	left	underconstrained
