onset	duration	trial_number	instance_id	values	weights	target_profit	target_capacity	instance_number	response_type	response_correct	response_time	xyCoordinates	error	instance_type	solution	instance_complexity	propagations_MZN	decisions_SAT	sum_values	sum_weights	nSolutions	IC_expost_lin	lat_highest_vw_ratio	eventType	trial_type	response_button	instance_region
0.037	3.007	1	170-0.43-0.62	41736442349	43539362932	124	79	4	yes	incorrect	0.9933903	(6,1)(2,1)(6.5,5)(8,2)(1.5,5)(0,2.5)	NA	1	no	high	178	1	200	184	0	0.12	left	1	items_screen	left	phase_transition
3.044	22.02	1	170-0.43-0.62	41736442349	43539362932	124	79	4	yes	incorrect	0.9933903	(6,1)(2,1)(6.5,5)(8,2)(1.5,5)(0,2.5)	NA	1	no	high	178	1	200	184	0	0.12	left	11	decision_screen	left	phase_transition
25.064	2.016	1	170-0.43-0.62	41736442349	43539362932	124	79	4	yes	incorrect	0.9933903	(6,1)(2,1)(6.5,5)(8,2)(1.5,5)(0,2.5)	NA	1	no	high	178	1	200	184	0	0.12	left	2	response_screen	left	phase_transition
26.055	0	1	170-0.43-0.62	41736442349	43539362932	124	79	4	yes	incorrect	0.9933903	(6,1)(2,1)(6.5,5)(8,2)(1.5,5)(0,2.5)	NA	1	no	high	178	1	200	184	0	0.12	left	21	button_press	left	phase_transition
27.08	8.035	1	170-0.43-0.62	41736442349	43539362932	124	79	4	yes	incorrect	0.9933903	(6,1)(2,1)(6.5,5)(8,2)(1.5,5)(0,2.5)	NA	1	no	high	178	1	200	184	0	0.12	left	3	inter_trial_screen	left	phase_transition
35.115	3.002	2	111-0.41-0.39	26494743224	42491322384	74	68	56	no	incorrect	1.150673	(6.5,4.5)(1.5,5.5)(1.5,1)(8,1.5)(4,6)(1,3)	NA	6	yes	low	138	5	191	168	5	0.13612565445026178	left	1	items_screen	right	underconstrained
38.117	22.018	2	111-0.41-0.39	26494743224	42491322384	74	68	56	no	incorrect	1.150673	(6.5,4.5)(1.5,5.5)(1.5,1)(8,1.5)(4,6)(1,3)	NA	6	yes	low	138	5	191	168	5	0.13612565445026178	left	11	decision_screen	right	underconstrained
60.135	2.017	2	111-0.41-0.39	26494743224	42491322384	74	68	56	no	incorrect	1.150673	(6.5,4.5)(1.5,5.5)(1.5,1)(8,1.5)(4,6)(1,3)	NA	6	yes	low	138	5	191	168	5	0.13612565445026178	left	2	response_screen	right	underconstrained
61.284	0	2	111-0.41-0.39	26494743224	42491322384	74	68	56	no	incorrect	1.150673	(6.5,4.5)(1.5,5.5)(1.5,1)(8,1.5)(4,6)(1,3)	NA	6	yes	low	138	5	191	168	5	0.13612565445026178	left	21	button_press	right	underconstrained
62.152	10.035	2	111-0.41-0.39	26494743224	42491322384	74	68	56	no	incorrect	1.150673	(6.5,4.5)(1.5,5.5)(1.5,1)(8,1.5)(4,6)(1,3)	NA	6	yes	low	138	5	191	168	5	0.13612565445026178	left	3	inter_trial_screen	right	underconstrained
72.187	3.001	3	51-0.41-0.87	111535411429	27337233528	126	62	42	yes	incorrect	1.282226	(7,6)(2,6)(7.5,2)(0,4)(2,1)(4.5,6)	NA	5	no	low	84	0	145	153	0	0.2827586206896552	left	1	items_screen	left	overconstrained
75.188	22.019	3	51-0.41-0.87	111535411429	27337233528	126	62	42	yes	incorrect	1.282226	(7,6)(2,6)(7.5,2)(0,4)(2,1)(4.5,6)	NA	5	no	low	84	0	145	153	0	0.2827586206896552	left	11	decision_screen	left	overconstrained
97.207	2.017	3	51-0.41-0.87	111535411429	27337233528	126	62	42	yes	incorrect	1.282226	(7,6)(2,6)(7.5,2)(0,4)(2,1)(4.5,6)	NA	5	no	low	84	0	145	153	0	0.2827586206896552	left	2	response_screen	left	overconstrained
98.488	0	3	51-0.41-0.87	111535411429	27337233528	126	62	42	yes	incorrect	1.282226	(7,6)(2,6)(7.5,2)(0,4)(2,1)(4.5,6)	NA	5	no	low	84	0	145	153	0	0.2827586206896552	left	21	button_press	left	overconstrained
99.224	8.035	3	51-0.41-0.87	111535411429	27337233528	126	62	42	yes	incorrect	1.282226	(7,6)(2,6)(7.5,2)(0,4)(2,1)(4.5,6)	NA	5	no	low	84	0	145	153	0	0.2827586206896552	left	3	inter_trial_screen	left	overconstrained
107.259	3.003	4	246-0.42-0.63	43317144924	231225421342	94	65	13	no	incorrect	0.8126522	(0,4)(8,5)(6,5)(8,2.5)(2.5,5.5)(0,1.5)	NA	2	yes	high	139	3	150	157	2	0.1	left	1	items_screen	left	phase_transition
110.262	22.019	4	246-0.42-0.63	43317144924	231225421342	94	65	13	no	incorrect	0.8126522	(0,4)(8,5)(6,5)(8,2.5)(2.5,5.5)(0,1.5)	NA	2	yes	high	139	3	150	157	2	0.1	left	11	decision_screen	left	phase_transition
132.281	2.018	4	246-0.42-0.63	43317144924	231225421342	94	65	13	no	incorrect	0.8126522	(0,4)(8,5)(6,5)(8,2.5)(2.5,5.5)(0,1.5)	NA	2	yes	high	139	3	150	157	2	0.1	left	2	response_screen	left	phase_transition
133.092	0	4	246-0.42-0.63	43317144924	231225421342	94	65	13	no	incorrect	0.8126522	(0,4)(8,5)(6,5)(8,2.5)(2.5,5.5)(0,1.5)	NA	2	yes	high	139	3	150	157	2	0.1	left	21	button_press	left	phase_transition
134.299	8.035	4	246-0.42-0.63	43317144924	231225421342	94	65	13	no	incorrect	0.8126522	(0,4)(8,5)(6,5)(8,2.5)(2.5,5.5)(0,1.5)	NA	2	yes	high	139	3	150	157	2	0.1	left	3	inter_trial_screen	left	phase_transition
142.334	3.009	5	149-0.43-0.63	13134372249	271819203833	109	66	19	no	correct	0.6008207	(4.5,1)(7,4.5)(7,2)(4,6)(1.5,5.5)(1,1.5)	NA	3	no	high	390	5	174	155	0	0.04022988505747126	center	1	items_screen	left	phase_transition
145.343	22.019	5	149-0.43-0.63	13134372249	271819203833	109	66	19	no	correct	0.6008207	(4.5,1)(7,4.5)(7,2)(4,6)(1.5,5.5)(1,1.5)	NA	3	no	high	390	5	174	155	0	0.04022988505747126	center	11	decision_screen	left	phase_transition
167.362	2.017	5	149-0.43-0.63	13134372249	271819203833	109	66	19	no	correct	0.6008207	(4.5,1)(7,4.5)(7,2)(4,6)(1.5,5.5)(1,1.5)	NA	3	no	high	390	5	174	155	0	0.04022988505747126	center	2	response_screen	left	phase_transition
167.961	0	5	149-0.43-0.63	13134372249	271819203833	109	66	19	no	correct	0.6008207	(4.5,1)(7,4.5)(7,2)(4,6)(1.5,5.5)(1,1.5)	NA	3	no	high	390	5	174	155	0	0.04022988505747126	center	21	button_press	left	phase_transition
169.379	10.035	5	149-0.43-0.63	13134372249	271819203833	109	66	19	no	correct	0.6008207	(4.5,1)(7,4.5)(7,2)(4,6)(1.5,5.5)(1,1.5)	NA	3	no	high	390	5	174	155	0	0.04022988505747126	center	3	inter_trial_screen	left	phase_transition
179.414	3.001	6	129-0.45-0.9	402624432513	14356262615	153	54	40	no	correct	0.9757005	(1,3.5)(8,5.5)(2.5,6)(6.5,1.5)(5.5,6)(1,1)	NA	5	no	low	109	0	171	122	0	0.26900584795321636	left	1	items_screen	left	overconstrained
182.415	22.019	6	129-0.45-0.9	402624432513	14356262615	153	54	40	no	correct	0.9757005	(1,3.5)(8,5.5)(2.5,6)(6.5,1.5)(5.5,6)(1,1)	NA	5	no	low	109	0	171	122	0	0.26900584795321636	left	11	decision_screen	left	overconstrained
204.434	2.018	6	129-0.45-0.9	402624432513	14356262615	153	54	40	no	correct	0.9757005	(1,3.5)(8,5.5)(2.5,6)(6.5,1.5)(5.5,6)(1,1)	NA	5	no	low	109	0	171	122	0	0.26900584795321636	left	2	response_screen	left	overconstrained
205.408	0	6	129-0.45-0.9	402624432513	14356262615	153	54	40	no	correct	0.9757005	(1,3.5)(8,5.5)(2.5,6)(6.5,1.5)(5.5,6)(1,1)	NA	5	no	low	109	0	171	122	0	0.26900584795321636	left	21	button_press	left	overconstrained
206.452	8.035	6	129-0.45-0.9	402624432513	14356262615	153	54	40	no	correct	0.9757005	(1,3.5)(8,5.5)(2.5,6)(6.5,1.5)(5.5,6)(1,1)	NA	5	no	low	109	0	171	122	0	0.26900584795321636	left	3	inter_trial_screen	left	overconstrained
214.487	3	7	227-0.45-0.38	47764254	13415432943	35	74	46	no	incorrect	0.8480188	(7.5,1.5)(7.5,6)(2,6)(1,1.5)(0,4.5)(5,6)	NA	6	yes	low	138	6	93	165	13	0.4731182795698925	right	1	items_screen	left	underconstrained
217.487	22.018	7	227-0.45-0.38	47764254	13415432943	35	74	46	no	incorrect	0.8480188	(7.5,1.5)(7.5,6)(2,6)(1,1.5)(0,4.5)(5,6)	NA	6	yes	low	138	6	93	165	13	0.4731182795698925	right	11	decision_screen	left	underconstrained
239.505	2.018	7	227-0.45-0.38	47764254	13415432943	35	74	46	no	incorrect	0.8480188	(7.5,1.5)(7.5,6)(2,6)(1,1.5)(0,4.5)(5,6)	NA	6	yes	low	138	6	93	165	13	0.4731182795698925	right	2	response_screen	left	underconstrained
240.352	0	7	227-0.45-0.38	47764254	13415432943	35	74	46	no	incorrect	0.8480188	(7.5,1.5)(7.5,6)(2,6)(1,1.5)(0,4.5)(5,6)	NA	6	yes	low	138	6	93	165	13	0.4731182795698925	right	21	button_press	left	underconstrained
241.523	8.026	7	227-0.45-0.38	47764254	13415432943	35	74	46	no	incorrect	0.8480188	(7.5,1.5)(7.5,6)(2,6)(1,1.5)(0,4.5)(5,6)	NA	6	yes	low	138	6	93	165	13	0.4731182795698925	right	3	inter_trial_screen	left	underconstrained
249.549	3.001	8	176-0.41-0.61	7374894433	2718494089	108	61	22	yes	correct	0.6707336	(0,3)(7,3.5)(0.5,5.5)(6,1)(4,5.5)(3,0.5)	NA	4	yes	high	237	5	178	151	1	0.03370786516853932	center	1	items_screen	left	phase_transition
252.55	22.019	8	176-0.41-0.61	7374894433	2718494089	108	61	22	yes	correct	0.6707336	(0,3)(7,3.5)(0.5,5.5)(6,1)(4,5.5)(3,0.5)	NA	4	yes	high	237	5	178	151	1	0.03370786516853932	center	11	decision_screen	left	phase_transition
274.569	2.017	8	176-0.41-0.61	7374894433	2718494089	108	61	22	yes	correct	0.6707336	(0,3)(7,3.5)(0.5,5.5)(6,1)(4,5.5)(3,0.5)	NA	4	yes	high	237	5	178	151	1	0.03370786516853932	center	2	response_screen	left	phase_transition
275.238	0	8	176-0.41-0.61	7374894433	2718494089	108	61	22	yes	correct	0.6707336	(0,3)(7,3.5)(0.5,5.5)(6,1)(4,5.5)(3,0.5)	NA	4	yes	high	237	5	178	151	1	0.03370786516853932	center	21	button_press	left	phase_transition
276.586	12.035	8	176-0.41-0.61	7374894433	2718494089	108	61	22	yes	correct	0.6707336	(0,3)(7,3.5)(0.5,5.5)(6,1)(4,5.5)(3,0.5)	NA	4	yes	high	237	5	178	151	1	0.03370786516853932	center	3	inter_trial_screen	left	phase_transition
288.621	0.037	8	176-0.41-0.61	7374894433	2718494089	108	61	22	yes	correct	0.6707336	(0,3)(7,3.5)(0.5,5.5)(6,1)(4,5.5)(3,0.5)	NA	4	yes	high	237	5	178	151	1	0.03370786516853932	center	4	inter_block_screen	left	phase_transition
