onset	duration	trial_number	instance_id	values	weights	target_profit	target_capacity	instance_number	response_type	response_correct	response_time	xyCoordinates	error	instance_type	solution	instance_complexity	propagations_MZN	decisions_SAT	sum_values	sum_weights	nSolutions	IC_expost_lin	lat_highest_vw_ratio	eventType	trial_type	response_button	instance_region
0.038	3.005	1	195-0.43-0.64	143424162213	381822441018	78	64	27	yes	correct	0.9522554	(7,2)(0.5,4.5)(2,1)(7.5,6)(4.5,6)(0,2.5)	NA	4	yes	high	243	3	123	150	1	0.01626016260162601	center	1	items_screen	left	phase_transition
3.043	22.02	1	195-0.43-0.64	143424162213	381822441018	78	64	27	yes	correct	0.9522554	(7,2)(0.5,4.5)(2,1)(7.5,6)(4.5,6)(0,2.5)	NA	4	yes	high	243	3	123	150	1	0.01626016260162601	center	11	decision_screen	left	phase_transition
25.063	2.016	1	195-0.43-0.64	143424162213	381822441018	78	64	27	yes	correct	0.9522554	(7,2)(0.5,4.5)(2,1)(7.5,6)(4.5,6)(0,2.5)	NA	4	yes	high	243	3	123	150	1	0.01626016260162601	center	2	response_screen	left	phase_transition
26.012	0	1	195-0.43-0.64	143424162213	381822441018	78	64	27	yes	correct	0.9522554	(7,2)(0.5,4.5)(2,1)(7.5,6)(4.5,6)(0,2.5)	NA	4	yes	high	243	3	123	150	1	0.01626016260162601	center	21	button_press	left	phase_transition
27.079	12.035	1	195-0.43-0.64	143424162213	381822441018	78	64	27	yes	correct	0.9522554	(7,2)(0.5,4.5)(2,1)(7.5,6)(4.5,6)(0,2.5)	NA	4	yes	high	243	3	123	150	1	0.01626016260162601	center	3	inter_trial_screen	left	phase_transition
39.114	3.004	2	227-0.45-0.38	47764254	13415432943	35	74	46	yes	correct	0.6517166	(6.5,5)(0.5,5)(3.5,6)(0.5,2.5)(7,2)(2.5,1)	NA	6	yes	low	138	6	93	165	13	0.4731182795698925	right	1	items_screen	right	underconstrained
42.118	22.019	2	227-0.45-0.38	47764254	13415432943	35	74	46	yes	correct	0.6517166	(6.5,5)(0.5,5)(3.5,6)(0.5,2.5)(7,2)(2.5,1)	NA	6	yes	low	138	6	93	165	13	0.4731182795698925	right	11	decision_screen	right	underconstrained
64.137	2.017	2	227-0.45-0.38	47764254	13415432943	35	74	46	yes	correct	0.6517166	(6.5,5)(0.5,5)(3.5,6)(0.5,2.5)(7,2)(2.5,1)	NA	6	yes	low	138	6	93	165	13	0.4731182795698925	right	2	response_screen	right	underconstrained
64.787	0	2	227-0.45-0.38	47764254	13415432943	35	74	46	yes	correct	0.6517166	(6.5,5)(0.5,5)(3.5,6)(0.5,2.5)(7,2)(2.5,1)	NA	6	yes	low	138	6	93	165	13	0.4731182795698925	right	21	button_press	right	underconstrained
66.154	8.035	2	227-0.45-0.38	47764254	13415432943	35	74	46	yes	correct	0.6517166	(6.5,5)(0.5,5)(3.5,6)(0.5,2.5)(7,2)(2.5,1)	NA	6	yes	low	138	6	93	165	13	0.4731182795698925	right	3	inter_trial_screen	right	underconstrained
74.189	3.011	3	38-0.45-0.62	21183533538	1388391437	93	61	14	yes	correct	0.776055	(8,4)(5.5,6)(2,0.5)(5.5,1)(1,5.5)(8,2)	NA	2	yes	high	139	3	150	137	5	0.24	right	1	items_screen	right	phase_transition
77.2	22.019	3	38-0.45-0.62	21183533538	1388391437	93	61	14	yes	correct	0.776055	(8,4)(5.5,6)(2,0.5)(5.5,1)(1,5.5)(8,2)	NA	2	yes	high	139	3	150	137	5	0.24	right	11	decision_screen	right	phase_transition
99.219	2.018	3	38-0.45-0.62	21183533538	1388391437	93	61	14	yes	correct	0.776055	(8,4)(5.5,6)(2,0.5)(5.5,1)(1,5.5)(8,2)	NA	2	yes	high	139	3	150	137	5	0.24	right	2	response_screen	right	phase_transition
99.994	0	3	38-0.45-0.62	21183533538	1388391437	93	61	14	yes	correct	0.776055	(8,4)(5.5,6)(2,0.5)(5.5,1)(1,5.5)(8,2)	NA	2	yes	high	139	3	150	137	5	0.24	right	21	button_press	right	phase_transition
101.237	8.026	3	38-0.45-0.62	21183533538	1388391437	93	61	14	yes	correct	0.776055	(8,4)(5.5,6)(2,0.5)(5.5,1)(1,5.5)(8,2)	NA	2	yes	high	139	3	150	137	5	0.24	right	3	inter_trial_screen	right	phase_transition
109.263	3.001	4	220-0.43-0.61	48173383638	2422718209	109	43	1	no	correct	0.6251878	(6.5,5.5)(2,4.5)(1,2)(7.5,1)(4,6)(5,0.5)	NA	1	no	high	188	1	180	100	0	0.03333333333333333	left	1	items_screen	left	phase_transition
112.264	22.019	4	220-0.43-0.61	48173383638	2422718209	109	43	1	no	correct	0.6251878	(6.5,5.5)(2,4.5)(1,2)(7.5,1)(4,6)(5,0.5)	NA	1	no	high	188	1	180	100	0	0.03333333333333333	left	11	decision_screen	left	phase_transition
134.283	2.017	4	220-0.43-0.61	48173383638	2422718209	109	43	1	no	correct	0.6251878	(6.5,5.5)(2,4.5)(1,2)(7.5,1)(4,6)(5,0.5)	NA	1	no	high	188	1	180	100	0	0.03333333333333333	left	2	response_screen	left	phase_transition
134.907	0	4	220-0.43-0.61	48173383638	2422718209	109	43	1	no	correct	0.6251878	(6.5,5.5)(2,4.5)(1,2)(7.5,1)(4,6)(5,0.5)	NA	1	no	high	188	1	180	100	0	0.03333333333333333	left	21	button_press	left	phase_transition
136.3	10.035	4	220-0.43-0.61	48173383638	2422718209	109	43	1	no	correct	0.6251878	(6.5,5.5)(2,4.5)(1,2)(7.5,1)(4,6)(5,0.5)	NA	1	no	high	188	1	180	100	0	0.03333333333333333	left	3	inter_trial_screen	left	phase_transition
146.335	3.001	5	74-0.43-0.4	184438204043	3334926383	81	65	45	yes	correct	0.6557976	(1,4.5)(6.5,1)(7,5)(0.5,2)(3,6)(2.5,0.5)	NA	6	yes	low	135	6	203	152	10	0.2167487684729064	left	1	items_screen	right	underconstrained
149.336	22.02	5	74-0.43-0.4	184438204043	3334926383	81	65	45	yes	correct	0.6557976	(1,4.5)(6.5,1)(7,5)(0.5,2)(3,6)(2.5,0.5)	NA	6	yes	low	135	6	203	152	10	0.2167487684729064	left	11	decision_screen	right	underconstrained
171.356	2.017	5	74-0.43-0.4	184438204043	3334926383	81	65	45	yes	correct	0.6557976	(1,4.5)(6.5,1)(7,5)(0.5,2)(3,6)(2.5,0.5)	NA	6	yes	low	135	6	203	152	10	0.2167487684729064	left	2	response_screen	right	underconstrained
172.01	0	5	74-0.43-0.4	184438204043	3334926383	81	65	45	yes	correct	0.6557976	(1,4.5)(6.5,1)(7,5)(0.5,2)(3,6)(2.5,0.5)	NA	6	yes	low	135	6	203	152	10	0.2167487684729064	left	21	button_press	right	underconstrained
173.373	8.035	5	74-0.43-0.4	184438204043	3334926383	81	65	45	yes	correct	0.6557976	(1,4.5)(6.5,1)(7,5)(0.5,2)(3,6)(2.5,0.5)	NA	6	yes	low	135	6	203	152	10	0.2167487684729064	left	3	inter_trial_screen	right	underconstrained
181.408	3.005	6	145-0.41-0.86	13362523338	49394452223	118	74	39	no	correct	0.6747069	(1.5,5.5)(8,3)(2,0.5)(8,5.5)(4,1)(0,2.5)	NA	5	no	low	97	0	138	182	0	0.13768115942028986	left	1	items_screen	right	overconstrained
184.413	22.019	6	145-0.41-0.86	13362523338	49394452223	118	74	39	no	correct	0.6747069	(1.5,5.5)(8,3)(2,0.5)(8,5.5)(4,1)(0,2.5)	NA	5	no	low	97	0	138	182	0	0.13768115942028986	left	11	decision_screen	right	overconstrained
206.432	2.017	6	145-0.41-0.86	13362523338	49394452223	118	74	39	no	correct	0.6747069	(1.5,5.5)(8,3)(2,0.5)(8,5.5)(4,1)(0,2.5)	NA	5	no	low	97	0	138	182	0	0.13768115942028986	left	2	response_screen	right	overconstrained
207.105	0	6	145-0.41-0.86	13362523338	49394452223	118	74	39	no	correct	0.6747069	(1.5,5.5)(8,3)(2,0.5)(8,5.5)(4,1)(0,2.5)	NA	5	no	low	97	0	138	182	0	0.13768115942028986	left	21	button_press	right	overconstrained
208.449	8.035	6	145-0.41-0.86	13362523338	49394452223	118	74	39	no	correct	0.6747069	(1.5,5.5)(8,3)(2,0.5)(8,5.5)(4,1)(0,2.5)	NA	5	no	low	97	0	138	182	0	0.13768115942028986	left	3	inter_trial_screen	right	overconstrained
216.484	3.002	7	32-0.43-0.87	354927395	29242444340	111	70	34	no	correct	0.5670137	(0.5,4)(6.5,4)(1,1.5)(4.5,6)(2,5.5)(7.5,1.5)	NA	5	no	low	83	0	128	164	0	0.140625	left	1	items_screen	right	overconstrained
219.486	22.018	7	32-0.43-0.87	354927395	29242444340	111	70	34	no	correct	0.5670137	(0.5,4)(6.5,4)(1,1.5)(4.5,6)(2,5.5)(7.5,1.5)	NA	5	no	low	83	0	128	164	0	0.140625	left	11	decision_screen	right	overconstrained
241.504	2.018	7	32-0.43-0.87	354927395	29242444340	111	70	34	no	correct	0.5670137	(0.5,4)(6.5,4)(1,1.5)(4.5,6)(2,5.5)(7.5,1.5)	NA	5	no	low	83	0	128	164	0	0.140625	left	2	response_screen	right	overconstrained
242.07	0	7	32-0.43-0.87	354927395	29242444340	111	70	34	no	correct	0.5670137	(0.5,4)(6.5,4)(1,1.5)(4.5,6)(2,5.5)(7.5,1.5)	NA	5	no	low	83	0	128	164	0	0.140625	left	21	button_press	right	overconstrained
243.522	10.035	7	32-0.43-0.87	354927395	29242444340	111	70	34	no	correct	0.5670137	(0.5,4)(6.5,4)(1,1.5)(4.5,6)(2,5.5)(7.5,1.5)	NA	5	no	low	83	0	128	164	0	0.140625	left	3	inter_trial_screen	right	overconstrained
253.557	3.004	8	112-0.45-0.64	352915382947	272743294433	123	91	15	no	correct	0.776736	(0,5.5)(6,1)(6,5.5)(1,1.5)(2.5,6)(8,2.5)	NA	3	no	high	306	3	193	203	0	0.0155440414507772	right	1	items_screen	right	phase_transition
256.561	22.019	8	112-0.45-0.64	352915382947	272743294433	123	91	15	no	correct	0.776736	(0,5.5)(6,1)(6,5.5)(1,1.5)(2.5,6)(8,2.5)	NA	3	no	high	306	3	193	203	0	0.0155440414507772	right	11	decision_screen	right	phase_transition
278.58	2.017	8	112-0.45-0.64	352915382947	272743294433	123	91	15	no	correct	0.776736	(0,5.5)(6,1)(6,5.5)(1,1.5)(2.5,6)(8,2.5)	NA	3	no	high	306	3	193	203	0	0.0155440414507772	right	2	response_screen	right	phase_transition
279.355	0	8	112-0.45-0.64	352915382947	272743294433	123	91	15	no	correct	0.776736	(0,5.5)(6,1)(6,5.5)(1,1.5)(2.5,6)(8,2.5)	NA	3	no	high	306	3	193	203	0	0.0155440414507772	right	21	button_press	right	phase_transition
280.597	8.036	8	112-0.45-0.64	352915382947	272743294433	123	91	15	no	correct	0.776736	(0,5.5)(6,1)(6,5.5)(1,1.5)(2.5,6)(8,2.5)	NA	3	no	high	306	3	193	203	0	0.0155440414507772	right	3	inter_trial_screen	right	phase_transition
288.633	0.037	8	112-0.45-0.64	352915382947	272743294433	123	91	15	no	correct	0.776736	(0,5.5)(6,1)(6,5.5)(1,1.5)(2.5,6)(8,2.5)	NA	3	no	high	306	3	193	203	0	0.0155440414507772	right	4	inter_block_screen	right	phase_transition
