onset	duration	trial_number	instance_id	values	weights	target_profit	target_capacity	instance_number	response_type	response_correct	response_time	xyCoordinates	error	instance_type	solution	instance_complexity	propagations_MZN	decisions_SAT	sum_values	sum_weights	nSolutions	IC_expost_lin	lat_highest_vw_ratio	eventType	trial_type	response_button	instance_region
0.036	3.008	1	88-0.42-0.65	271946113713	254417393023	99	74	23	yes	correct	0.6635579	(1,3.5)(7.5,4.5)(6,0.5)(0,6)(0,1)(3.5,6)	NA	4	yes	high	230	4	153	178	1	0.0718954248366013	right	1	items_screen	right	phase_transition
3.044	22.02	1	88-0.42-0.65	271946113713	254417393023	99	74	23	yes	correct	0.6635579	(1,3.5)(7.5,4.5)(6,0.5)(0,6)(0,1)(3.5,6)	NA	4	yes	high	230	4	153	178	1	0.0718954248366013	right	11	decision_screen	right	phase_transition
25.064	2.017	1	88-0.42-0.65	271946113713	254417393023	99	74	23	yes	correct	0.6635579	(1,3.5)(7.5,4.5)(6,0.5)(0,6)(0,1)(3.5,6)	NA	4	yes	high	230	4	153	178	1	0.0718954248366013	right	2	response_screen	right	phase_transition
25.726	0	1	88-0.42-0.65	271946113713	254417393023	99	74	23	yes	correct	0.6635579	(1,3.5)(7.5,4.5)(6,0.5)(0,6)(0,1)(3.5,6)	NA	4	yes	high	230	4	153	178	1	0.0718954248366013	right	21	button_press	right	phase_transition
27.081	8.035	1	88-0.42-0.65	271946113713	254417393023	99	74	23	yes	correct	0.6635579	(1,3.5)(7.5,4.5)(6,0.5)(0,6)(0,1)(3.5,6)	NA	4	yes	high	230	4	153	178	1	0.0718954248366013	right	3	inter_trial_screen	right	phase_transition
35.116	3	2	247-0.43-0.63	2591735515	372449423611	66	85	3	no	correct	0.5736475	(7.5,4)(0.5,6)(6.5,1.5)(0.5,1.5)(4.5,6)(2.5,5.5)	NA	1	no	high	190	1	106	199	0	0.05660377358490566	left	1	items_screen	left	phase_transition
38.116	22.019	2	247-0.43-0.63	2591735515	372449423611	66	85	3	no	correct	0.5736475	(7.5,4)(0.5,6)(6.5,1.5)(0.5,1.5)(4.5,6)(2.5,5.5)	NA	1	no	high	190	1	106	199	0	0.05660377358490566	left	11	decision_screen	left	phase_transition
60.135	2.017	2	247-0.43-0.63	2591735515	372449423611	66	85	3	no	correct	0.5736475	(7.5,4)(0.5,6)(6.5,1.5)(0.5,1.5)(4.5,6)(2.5,5.5)	NA	1	no	high	190	1	106	199	0	0.05660377358490566	left	2	response_screen	left	phase_transition
60.707	0	2	247-0.43-0.63	2591735515	372449423611	66	85	3	no	correct	0.5736475	(7.5,4)(0.5,6)(6.5,1.5)(0.5,1.5)(4.5,6)(2.5,5.5)	NA	1	no	high	190	1	106	199	0	0.05660377358490566	left	21	button_press	left	phase_transition
62.152	10.035	2	247-0.43-0.63	2591735515	372449423611	66	85	3	no	correct	0.5736475	(7.5,4)(0.5,6)(6.5,1.5)(0.5,1.5)(4.5,6)(2.5,5.5)	NA	1	no	high	190	1	106	199	0	0.05660377358490566	left	3	inter_trial_screen	left	phase_transition
72.187	3.002	3	124-0.42-0.89	434520261213	43825164947	141	75	37	no	correct	0.6255423	(5,0.5)(0.5,3.5)(7,1.5)(7,6)(0,1)(2.5,1)	NA	5	no	low	95	0	159	179	0	0.16981132075471697	right	1	items_screen	right	overconstrained
75.189	22.019	3	124-0.42-0.89	434520261213	43825164947	141	75	37	no	correct	0.6255423	(5,0.5)(0.5,3.5)(7,1.5)(7,6)(0,1)(2.5,1)	NA	5	no	low	95	0	159	179	0	0.16981132075471697	right	11	decision_screen	right	overconstrained
97.208	2.017	3	124-0.42-0.89	434520261213	43825164947	141	75	37	no	correct	0.6255423	(5,0.5)(0.5,3.5)(7,1.5)(7,6)(0,1)(2.5,1)	NA	5	no	low	95	0	159	179	0	0.16981132075471697	right	2	response_screen	right	overconstrained
97.832	0	3	124-0.42-0.89	434520261213	43825164947	141	75	37	no	correct	0.6255423	(5,0.5)(0.5,3.5)(7,1.5)(7,6)(0,1)(2.5,1)	NA	5	no	low	95	0	159	179	0	0.16981132075471697	right	21	button_press	right	overconstrained
99.225	8.036	3	124-0.42-0.89	434520261213	43825164947	141	75	37	no	correct	0.6255423	(5,0.5)(0.5,3.5)(7,1.5)(7,6)(0,1)(2.5,1)	NA	5	no	low	95	0	159	179	0	0.16981132075471697	right	3	inter_trial_screen	right	overconstrained
107.261	3	4	201-0.44-0.86	461818414713	33112933191	157	55	32	no	correct	0.5605561	(0,1.5)(1,5)(7,1.5)(5,6)(8,4)(4.5,0.5)	NA	5	no	low	83	0	183	126	0	0.2786885245901639	center	1	items_screen	right	overconstrained
110.261	22.019	4	201-0.44-0.86	461818414713	33112933191	157	55	32	no	correct	0.5605561	(0,1.5)(1,5)(7,1.5)(5,6)(8,4)(4.5,0.5)	NA	5	no	low	83	0	183	126	0	0.2786885245901639	center	11	decision_screen	right	overconstrained
132.28	2.016	4	201-0.44-0.86	461818414713	33112933191	157	55	32	no	correct	0.5605561	(0,1.5)(1,5)(7,1.5)(5,6)(8,4)(4.5,0.5)	NA	5	no	low	83	0	183	126	0	0.2786885245901639	center	2	response_screen	right	overconstrained
132.838	0	4	201-0.44-0.86	461818414713	33112933191	157	55	32	no	correct	0.5605561	(0,1.5)(1,5)(7,1.5)(5,6)(8,4)(4.5,0.5)	NA	5	no	low	83	0	183	126	0	0.2786885245901639	center	21	button_press	right	overconstrained
134.296	8.035	4	201-0.44-0.86	461818414713	33112933191	157	55	32	no	correct	0.5605561	(0,1.5)(1,5)(7,1.5)(5,6)(8,4)(4.5,0.5)	NA	5	no	low	83	0	183	126	0	0.2786885245901639	center	3	inter_trial_screen	right	overconstrained
142.331	3	5	25-0.45-0.65	48545143321	331835392222	107	76	20	no	correct	0.5515507	(1,3)(3.5,1)(8,3)(1,5.5)(6,5.5)(3,6)	NA	3	no	high	394	2	166	169	0	0.08433734939759036	right	1	items_screen	right	phase_transition
145.331	22.018	5	25-0.45-0.65	48545143321	331835392222	107	76	20	no	correct	0.5515507	(1,3)(3.5,1)(8,3)(1,5.5)(6,5.5)(3,6)	NA	3	no	high	394	2	166	169	0	0.08433734939759036	right	11	decision_screen	right	phase_transition
167.349	2.018	5	25-0.45-0.65	48545143321	331835392222	107	76	20	no	correct	0.5515507	(1,3)(3.5,1)(8,3)(1,5.5)(6,5.5)(3,6)	NA	3	no	high	394	2	166	169	0	0.08433734939759036	right	2	response_screen	right	phase_transition
167.899	0	5	25-0.45-0.65	48545143321	331835392222	107	76	20	no	correct	0.5515507	(1,3)(3.5,1)(8,3)(1,5.5)(6,5.5)(3,6)	NA	3	no	high	394	2	166	169	0	0.08433734939759036	right	21	button_press	right	phase_transition
169.367	10.035	5	25-0.45-0.65	48545143321	331835392222	107	76	20	no	correct	0.5515507	(1,3)(3.5,1)(8,3)(1,5.5)(6,5.5)(3,6)	NA	3	no	high	394	2	166	169	0	0.08433734939759036	right	3	inter_trial_screen	right	phase_transition
179.402	3.003	6	102-0.41-0.38	343638342432	4237552446	75	65	44	yes	correct	0.6128192	(5,6)(8,2)(0,0.5)(0.5,5)(8,6)(6,1)	NA	6	yes	low	135	8	198	159	4	0.16666666666666666	left	1	items_screen	left	underconstrained
182.405	22.019	6	102-0.41-0.38	343638342432	4237552446	75	65	44	yes	correct	0.6128192	(5,6)(8,2)(0,0.5)(0.5,5)(8,6)(6,1)	NA	6	yes	low	135	8	198	159	4	0.16666666666666666	left	11	decision_screen	left	underconstrained
204.424	2.017	6	102-0.41-0.38	343638342432	4237552446	75	65	44	yes	correct	0.6128192	(5,6)(8,2)(0,0.5)(0.5,5)(8,6)(6,1)	NA	6	yes	low	135	8	198	159	4	0.16666666666666666	left	2	response_screen	left	underconstrained
205.035	0	6	102-0.41-0.38	343638342432	4237552446	75	65	44	yes	correct	0.6128192	(5,6)(8,2)(0,0.5)(0.5,5)(8,6)(6,1)	NA	6	yes	low	135	8	198	159	4	0.16666666666666666	left	21	button_press	left	underconstrained
206.441	8.034	6	102-0.41-0.38	343638342432	4237552446	75	65	44	yes	correct	0.6128192	(5,6)(8,2)(0,0.5)(0.5,5)(8,6)(6,1)	NA	6	yes	low	135	8	198	159	4	0.16666666666666666	left	3	inter_trial_screen	left	underconstrained
214.475	3.002	7	73-0.42-0.4	3407293637	233814434512	60	73	51	yes	correct	0.4983196	(1,1)(2,5.5)(8,6)(5.5,6)(7,1)(7.5,3.5)	NA	6	yes	low	134	7	152	175	7	0.15789473684210523	right	1	items_screen	right	underconstrained
217.477	22.019	7	73-0.42-0.4	3407293637	233814434512	60	73	51	yes	correct	0.4983196	(1,1)(2,5.5)(8,6)(5.5,6)(7,1)(7.5,3.5)	NA	6	yes	low	134	7	152	175	7	0.15789473684210523	right	11	decision_screen	right	underconstrained
239.496	2.017	7	73-0.42-0.4	3407293637	233814434512	60	73	51	yes	correct	0.4983196	(1,1)(2,5.5)(8,6)(5.5,6)(7,1)(7.5,3.5)	NA	6	yes	low	134	7	152	175	7	0.15789473684210523	right	2	response_screen	right	underconstrained
239.993	0	7	73-0.42-0.4	3407293637	233814434512	60	73	51	yes	correct	0.4983196	(1,1)(2,5.5)(8,6)(5.5,6)(7,1)(7.5,3.5)	NA	6	yes	low	134	7	152	175	7	0.15789473684210523	right	21	button_press	right	underconstrained
241.513	8.026	7	73-0.42-0.4	3407293637	233814434512	60	73	51	yes	correct	0.4983196	(1,1)(2,5.5)(8,6)(5.5,6)(7,1)(7.5,3.5)	NA	6	yes	low	134	7	152	175	7	0.15789473684210523	right	3	inter_trial_screen	right	underconstrained
249.539	3.001	8	93-0.44-0.63	1494051024	492527381319	64	75	11	yes	correct	0.587725	(2,6)(8,3.5)(6.5,1)(0,2.5)(5.5,6)(8,5.5)	NA	2	yes	high	141	4	102	171	3	0.09803921568627452	right	1	items_screen	right	phase_transition
252.54	22.019	8	93-0.44-0.63	1494051024	492527381319	64	75	11	yes	correct	0.587725	(2,6)(8,3.5)(6.5,1)(0,2.5)(5.5,6)(8,5.5)	NA	2	yes	high	141	4	102	171	3	0.09803921568627452	right	11	decision_screen	right	phase_transition
274.559	2.017	8	93-0.44-0.63	1494051024	492527381319	64	75	11	yes	correct	0.587725	(2,6)(8,3.5)(6.5,1)(0,2.5)(5.5,6)(8,5.5)	NA	2	yes	high	141	4	102	171	3	0.09803921568627452	right	2	response_screen	right	phase_transition
275.146	0	8	93-0.44-0.63	1494051024	492527381319	64	75	11	yes	correct	0.587725	(2,6)(8,3.5)(6.5,1)(0,2.5)(5.5,6)(8,5.5)	NA	2	yes	high	141	4	102	171	3	0.09803921568627452	right	21	button_press	right	phase_transition
276.576	12.035	8	93-0.44-0.63	1494051024	492527381319	64	75	11	yes	correct	0.587725	(2,6)(8,3.5)(6.5,1)(0,2.5)(5.5,6)(8,5.5)	NA	2	yes	high	141	4	102	171	3	0.09803921568627452	right	3	inter_trial_screen	right	phase_transition
288.611	0.037	8	93-0.44-0.63	1494051024	492527381319	64	75	11	yes	correct	0.587725	(2,6)(8,3.5)(6.5,1)(0,2.5)(5.5,6)(8,5.5)	NA	2	yes	high	141	4	102	171	3	0.09803921568627452	right	4	inter_block_screen	right	phase_transition
